#Wave		#Intensity
1883.957031	18074.158203
1882.277344	18226.878906
1880.597656	17849.605469
1878.916016	17966.738281
1877.236328	17893.416016
1875.554688	18060.343750
1873.873047	18145.630859
1872.191406	17919.783203
1870.509766	17820.857422
1868.826172	17898.587891
1867.142578	17852.527344
1865.458984	17980.009766
1863.775391	17745.375000
1862.091797	18013.089844
1860.408203	17897.671875
1858.722656	17735.566406
1857.037109	17591.615234
1855.351563	17476.355469
1853.666016	17498.248047
1851.980469	17764.156250
1850.292969	17320.617188
1848.607422	17529.230469
1846.919922	17310.228516
1845.232422	17600.023438
1843.542969	17463.855469
1841.855469	17512.785156
1840.166016	17378.193359
1838.478516	17607.570313
1836.789063	17418.888672
1835.097656	17315.964844
1833.408203	17280.708984
1831.716797	17394.212891
1830.027344	17358.951172
1828.335938	17187.035156
1826.644531	17172.851563
1824.951172	17146.664063
1823.259766	17263.066406
1821.566406	17134.828125
1819.873047	16967.636719
1818.179688	17164.994141
1816.486328	17170.318359
1814.792969	17214.619141
1813.097656	17079.025391
1811.402344	17030.408203
1809.707031	16704.623047
1808.011719	17003.636719
1806.316406	16968.541016
1804.619141	16970.892578
1802.923828	17103.482422
1801.226563	16816.937500
1799.529297	16820.810547
1797.830078	16721.453125
1796.132813	16882.394531
1794.433594	16839.888672
1792.734375	16635.929688
1791.035156	16663.746094
1789.335938	16838.005859
1787.636719	16941.964844
1785.935547	16618.646484
1784.234375	16725.591797
1782.533203	16819.050781
1780.832031	16669.134766
1779.130859	16593.906250
1777.429688	16752.984375
1775.726563	16673.292969
1774.023438	16486.240234
1772.320313	16561.726563
1770.617188	16364.338867
1768.912109	16435.343750
1767.207031	16534.630859
1765.503906	16401.439453
1763.798828	16417.269531
1762.091797	16613.296875
1760.386719	16560.576172
1758.679688	16297.973633
1756.974609	16327.200195
1755.267578	16225.466797
1753.560547	16262.131836
1751.851563	16315.140625
1750.144531	16293.771484
1748.435547	16318.500000
1746.726563	16213.896484
1745.017578	16130.142578
1743.308594	16220.259766
1741.597656	16231.606445
1739.888672	16122.651367
1738.177734	15987.014648
1736.466797	16204.746094
1734.753906	16213.112305
1733.042969	16090.894531
1731.330078	15962.793945
1729.619141	16168.468750
1727.906250	15972.191406
1726.191406	16011.725586
1724.478516	15988.986328
1722.763672	16167.797852
1721.050781	15912.419922
1719.335938	15848.236328
1717.621094	16019.552734
1715.904297	15802.865234
1714.189453	15892.696289
1712.472656	15938.086914
1710.755859	15847.326172
1709.039063	15768.438477
1707.322266	15883.336914
1705.603516	15677.303711
1703.886719	15765.557617
1702.167969	15856.728516
1700.449219	15647.875000
1698.730469	15836.539063
1697.009766	15830.141602
1695.291016	15826.698242
1693.570313	15750.909180
1691.849609	15542.297852
1690.128906	15535.964844
1688.406250	15383.557617
1686.685547	15614.761719
1684.962891	15536.143555
1683.240234	15445.762695
1681.517578	15578.025391
1679.792969	15263.639648
1678.070313	15518.188477
1676.345703	15505.966797
1674.621094	15300.794922
1672.896484	15505.096680
1671.171875	15345.652344
1669.445313	15398.239258
1667.720703	15280.091797
1665.994141	15257.629883
1664.267578	15241.060547
1662.539063	15283.324219
1660.812500	15377.030273
1659.083984	15357.501953
1657.355469	15192.478516
1655.626953	15380.180664
1653.898438	15163.803711
1652.169922	15104.675781
1650.439453	15064.663086
1648.708984	15165.605469
1646.978516	15044.865234
1645.248047	15059.183594
1643.517578	15076.428711
1641.785156	14895.643555
1640.052734	15088.895508
1638.320313	15067.998047
1636.587891	15041.245117
1634.855469	14957.346680
1633.121094	14958.465820
1631.386719	15018.179688
1629.652344	14850.855469
1627.917969	15026.240234
1626.183594	15097.607422
1624.447266	14694.729492
1622.712891	14751.502930
1620.976563	14951.621094
1619.240234	14948.340820
1617.501953	14759.344727
1615.765625	14826.282227
1614.027344	15049.590820
1612.289063	14992.215820
1610.550781	14902.722656
1608.812500	14889.224609
1607.072266	14620.159180
1605.333984	14625.708008
1603.593750	14647.310547
1601.853516	14854.251953
1600.111328	14756.143555
1598.371094	14888.568359
1596.628906	14794.868164
1594.886719	14874.729492
1593.144531	14765.035156
1591.402344	14927.943359
1589.660156	14844.512695
1587.916016	14691.186523
1586.171875	14666.104492
1584.427734	14785.199219
1582.683594	14601.410156
1580.937500	14627.305664
1579.193359	14739.050781
1577.447266	14856.564453
1575.701172	14899.838867
1573.955078	14866.013672
1572.207031	14816.208984
1570.460938	14683.565430
1568.712891	14898.330078
1566.964844	14822.392578
1565.216797	14942.603516
1563.466797	14802.781250
1561.718750	14647.046875
1559.968750	14979.168945
1558.218750	14852.490234
1556.468750	14969.653320
1554.716797	14890.906250
1552.966797	14768.678711
1551.214844	14945.235352
1549.462891	14931.784180
1547.710938	15011.106445
1545.957031	14848.377930
1544.205078	14694.413086
1542.451172	14995.359375
1540.697266	14963.079102
1538.943359	14904.749023
1537.187500	15002.782227
1535.433594	14974.859375
1533.677734	14916.562500
1531.921875	15002.951172
1530.166016	14977.935547
1528.410156	14889.306641
1526.652344	14964.075195
1524.894531	14972.324219
1523.136719	15088.944336
1521.378906	14828.444336
1519.621094	15037.482422
1517.861328	15086.136719
1516.101563	14908.099609
1514.341797	14946.653320
1512.582031	15040.027344
1510.822266	14870.771484
1509.060547	14912.189453
1507.298828	14820.911133
1505.539063	14833.482422
1503.775391	14654.327148
1502.013672	14760.604492
1500.250000	14712.661133
1498.488281	14942.762695
1496.724609	14814.144531
1494.960938	14921.727539
1493.195313	14585.868164
1491.431641	14594.142578
1489.666016	14518.952148
1487.900391	14442.355469
1486.134766	14528.320313
1484.367188	14438.811523
1482.601563	14287.520508
1480.833984	14367.709961
1479.066406	14258.173828
1477.298828	14404.419922
1475.529297	14441.433594
1473.761719	14307.538086
1471.992188	14256.973633
1470.222656	14004.036133
1468.453125	14191.787109
1466.681641	14036.539063
1464.912109	14106.571289
1463.140625	14069.009766
1461.369141	14193.486328
1459.597656	13940.892578
1457.824219	14056.741211
1456.052734	13936.112305
1454.279297	13804.076172
1452.505859	13716.497070
1450.732422	13796.489258
1448.957031	13681.748047
1447.183594	13724.497070
1445.408203	13760.070313
1443.632813	13626.812500
1441.857422	13789.688477
1440.080078	13602.140625
1438.304688	13500.456055
1436.527344	13547.469727
1434.750000	13674.487305
1432.972656	13735.725586
1431.193359	13674.092773
1429.414063	13582.497070
1427.636719	13403.847656
1425.857422	13310.922852
1424.076172	13544.850586
1422.296875	13280.716797
1420.515625	13117.981445
1418.734375	13396.002930
1416.953125	13375.896484
1415.171875	13246.033203
1413.388672	13268.723633
1411.607422	13185.959961
1409.824219	13130.300781
1408.041016	12999.178711
1406.255859	13056.074219
1404.472656	13001.900391
1402.687500	13149.859375
1400.902344	13017.422852
1399.117188	12978.940430
1397.332031	12793.973633
1395.544922	13021.474609
1393.759766	12904.820313
1391.972656	12775.424805
1390.185547	12788.192383
1388.396484	12827.948242
1386.609375	12809.447266
1384.820313	12621.959961
1383.031250	12763.948242
1381.242188	12928.583008
1379.451172	12806.472656
1377.662109	12741.170898
1375.871094	12844.700195
1374.080078	12743.960938
1372.289063	12837.516602
1370.496094	12831.798828
1368.705078	12847.341797
1366.912109	12835.955078
1365.119141	12874.153320
1363.326172	12886.839844
1361.531250	12900.936523
1359.738281	13127.373047
1357.943359	13210.758789
1356.148438	13346.460938
1354.353516	13496.248047
1352.556641	13725.171875
1350.759766	14077.015625
1348.964844	14401.838867
1347.166016	14955.489258
1345.369141	15915.866211
1343.572266	17254.437500
1341.773438	19600.914063
1339.974609	23823.087891
1338.175781	31983.800781
1336.376953	58115.148438
1334.576172	177594.281250
1332.775391	439825.187500
1330.974609	601312.312500
1329.173828	407615.812500
1327.373047	140119.046875
1325.570313	53583.671875
1323.767578	31232.833984
1321.964844	23518.677734
1320.162109	19857.898438
1318.359375	17890.191406
1316.554688	16552.755859
1314.750000	15467.902344
1312.945313	14650.940430
1311.140625	14152.345703
1309.335938	13679.295898
1307.529297	13584.790039
1305.722656	13041.773438
1303.916016	12536.957031
1302.109375	12333.142578
1300.300781	12188.435547
1298.492188	11967.930664
1296.685547	11739.097656
1294.875000	11660.618164
1293.066406	11575.153320
1291.257813	11569.730469
1289.447266	11393.111328
1287.636719	11358.268555
1285.826172	11382.350586
1284.013672	11339.110352
1282.203125	11151.482422
1280.390625	11119.525391
1278.578125	11056.750977
1276.765625	10908.541016
1274.951172	10997.120117
1273.138672	10963.823242
1271.324219	10884.335938
1269.509766	10929.464844
1267.693359	10864.014648
1265.878906	10692.258789
1264.062500	10705.224609
1262.246094	10716.785156
1260.429688	10791.258789
1258.613281	10717.521484
1256.794922	10627.046875
1254.978516	10578.530273
1253.160156	10552.384766
1251.341797	10575.131836
1249.521484	10529.449219
1247.703125	10485.182617
1245.882813	10445.122070
1244.062500	10410.660156
1242.240234	10487.815430
1240.419922	10361.306641
1238.597656	10495.606445
1236.777344	10436.067383
1234.953125	10324.985352
1233.130859	10435.510742
1231.308594	10433.141602
1229.484375	10407.094727
1227.660156	10371.311523
1225.835938	10303.523438
1224.011719	10334.587891
1222.185547	10312.757813
1220.359375	10324.327148
1218.533203	10191.234375
1216.707031	10129.123047
1214.880859	10082.331055
1213.052734	10134.247070
1211.224609	10133.333008
1209.396484	10126.860352
1207.568359	10093.999023
1205.738281	9919.502930
1203.910156	9954.733398
1202.080078	9924.706055
1200.250000	9857.223633
1198.417969	9968.750000
1196.587891	9912.382813
1194.755859	9792.247070
1192.923828	9753.968750
1191.091797	9833.532227
1189.259766	9859.008789
1187.425781	9842.908203
1185.591797	9810.190430
1183.757813	9791.335938
1181.923828	9820.950195
1180.087891	9705.201172
1178.253906	9722.364258
1176.417969	9709.078125
1174.582031	9681.963867
1172.744141	9665.925781
1170.908203	9810.288086
1169.070313	9766.578125
1167.232422	9720.123047
1165.394531	9720.668945
1163.556641	9674.244141
1161.716797	9660.987305
1159.876953	9632.545898
1158.037109	9424.653320
1156.197266	9365.913086
1154.355469	9374.813477
1152.515625	9385.087891
1150.673828	9213.297852
1148.832031	9274.623047
1146.988281	9363.492188
1145.146484	9293.815430
1143.302734	9204.878906
1141.458984	9198.641602
1139.615234	9053.293945
1137.771484	9056.732422
1135.925781	9018.866211
1134.080078	9110.398438
1132.234375	9071.160156
1130.388672	8924.627930
1128.541016	8910.207031
1126.695313	8877.914063
1124.847656	8918.501953
1122.998047	9070.405273
1121.150391	8863.573242
1119.302734	8967.332031
1117.453125	8972.146484
1115.603516	8780.582031
1113.753906	8860.947266
1111.902344	8694.202148
1110.050781	8780.037109
1108.201172	8760.188477
1106.347656	8700.570313
1104.496094	8712.289063
1102.644531	8593.751953
1100.791016	8573.961914
1098.937500	8581.587891
1097.083984	8585.099609
1095.228516	8565.323242
1093.375000	8538.707031
1091.519531	8555.915039
1089.664063	8549.844727
1087.808594	8412.397461
1085.951172	8500.768555
1084.093750	8446.835938
1082.236328	8364.208008
1080.378906	8306.228516
1078.521484	8339.861328
1076.662109	8358.444336
1074.804688	8416.642578
1072.945313	8223.464844
1071.083984	8399.117188
1069.224609	8242.896484
1067.363281	8141.350098
1065.501953	8056.227051
1063.640625	8141.699219
1061.779297	8139.826172
1059.916016	8193.870117
1058.054688	8157.897461
1056.191406	8160.109375
1054.326172	8028.757324
1052.462891	8165.891113
1050.597656	8131.316895
1048.732422	8053.175781
1046.867188	8011.833984
1045.001953	8019.517578
1043.134766	7916.956055
1041.269531	7928.738770
1039.402344	8000.372070
1037.535156	8057.010742
1035.666016	7955.892090
1033.796875	8083.204102
1031.929688	7964.456055
1030.060547	7814.509277
1028.189453	7986.594238
1026.320313	7935.857422
1024.449219	7879.711426
1022.578125	7752.998047
1020.707031	7785.140137
1018.833984	7802.340332
1016.962891	7780.189941
1015.089844	7772.968262
1013.216797	7739.985352
1011.343750	7601.274902
1009.468750	7712.014160
1007.593750	7691.261719
1005.718750	7623.102539
1003.843750	7489.961426
1001.968750	7528.854004
1000.091797	7562.312012
998.214844	7503.717285
996.337891	7503.335449
994.460938	7409.605957
992.583984	7478.224121
990.705078	7550.867188
988.826172	7392.297363
986.947266	7471.683105
985.066406	7433.468750
983.187500	7404.728516
981.306641	7303.064941
979.425781	7364.840332
977.544922	7346.934082
975.662109	7312.838867
973.779297	7340.832031
971.896484	7282.468750
970.013672	7327.989258
968.130859	7351.911621
966.246094	7312.458984
964.361328	7335.024902
962.476563	7278.075195
960.591797	7207.678223
958.705078	7144.048340
956.820313	7159.896973
954.933594	7154.196777
953.044922	7231.949707
951.158203	7084.938965
949.269531	7151.907715
947.382813	7115.275879
945.492188	7081.350098
943.603516	7133.482422
941.714844	7004.135254
939.824219	6978.320313
937.933594	7073.429199
936.042969	7079.844727
934.150391	7015.084961
932.257813	7040.305176
930.367188	7010.481445
928.472656	6908.207031
926.580078	7005.879395
924.687500	6990.836914
922.792969	6985.187500
920.898438	6920.550781
919.001953	6830.476563
917.107422	6823.526367
915.210938	6878.206543
913.314453	6823.028320
911.417969	6690.206543
909.521484	6724.795898
907.623047	6776.769043
905.724609	6621.299805
903.826172	6803.044434
901.927734	6706.492676
900.029297	6699.580566
898.128906	6764.864746
896.228516	6629.625977
894.328125	6625.407227
892.425781	6663.941406
890.525391	6606.288086
888.623047	6642.137207
886.720703	6545.797852
884.816406	6586.981934
882.914063	6650.832031
881.009766	6563.895020
879.105469	6635.722168
877.201172	6570.164063
875.294922	6565.962891
873.390625	6560.430176
871.484375	6610.867188
869.578125	6560.028809
867.669922	6380.014648
865.763672	6510.354980
863.855469	6583.386719
861.947266	6446.083984
860.037109	6436.591797
858.128906	6512.248535
856.218750	6432.250488
854.308594	6333.671875
852.398438	6370.743652
850.486328	6321.403320
848.576172	6323.909668
846.664063	6326.414063
844.751953	6178.829102
842.837891	6306.187988
840.925781	6368.434570
839.011719	6231.560059
837.097656	6238.061035
835.183594	6224.658691
833.267578	6219.220215
831.353516	6253.564453
829.437500	6161.948730
827.519531	6148.574707
825.603516	6104.728516
823.685547	6111.244629
821.767578	6109.810547
819.849609	6216.957520
817.931641	6035.453613
816.011719	5959.917969
814.093750	6022.033203
812.173828	6028.556152
810.251953	6070.785645
808.332031	5917.294434
806.410156	6028.272949
804.488281	6016.282227
802.566406	5926.335938
800.642578	6074.221680
798.720703	6055.623047
796.796875	5951.204590
794.873047	5970.926270
792.947266	5941.804688
791.023438	5910.057617
789.097656	6028.712891
787.171875	5842.649902
785.246094	5887.423828
783.318359	5933.494141
781.390625	5940.003906
779.462891	5922.792480
777.535156	5843.674316
775.607422	5881.807129
773.677734	5869.886719
771.748047	5856.655273
769.818359	5731.561523
767.888672	5832.839844
765.957031	5897.237305
764.025391	5828.772461
762.093750	5833.970703
760.162109	5891.747559
758.228516	5836.473145
756.296875	5753.632324
754.363281	5966.390625
752.427734	5737.781250
750.494141	5767.937012
748.558594	5794.140137
746.623047	5811.143555
744.687500	5753.351074
742.751953	5744.120117
740.814453	5656.207031
738.876953	5699.447266
736.939453	5671.882324
735.001953	5684.955566
733.062500	5751.739746
731.123047	5789.674316
729.183594	5661.274902
727.244141	5684.810059
725.302734	5548.641602
723.363281	5689.968750
721.421875	5621.895508
719.478516	5692.504395
717.537109	5640.153809
715.593750	5599.594727
713.650391	5702.833984
711.707031	5709.321777
709.763672	5721.031738
707.818359	5656.978516
705.873047	5671.306152
703.927734	5676.487305
701.982422	5735.180176
700.035156	5727.293457
698.087891	5701.145508
696.140625	5671.096191
694.193359	5655.404785
692.244141	5671.008301
690.294922	5642.289551
688.345703	5763.435547
686.396484	5720.376953
684.447266	5703.386719
682.496094	5730.676758
680.544922	5815.233398
678.593750	5809.944336
676.640625	5785.139648
674.689453	5912.550293
672.736328	5998.281250
670.783203	5922.736816
668.828125	6051.321777
666.875000	6108.364258
664.919922	6041.940918
662.964844	6066.481445
661.007813	5936.461426
659.052734	5764.953125
657.095703	5744.106445
655.138672	5632.423340
653.179688	5586.964844
651.222656	5559.687500
649.263672	5484.438965
647.304688	5376.811523
645.345703	5402.748535
643.384766	5369.059570
641.423828	5347.046387
639.462891	5343.177734
637.501953	5319.885254
635.541016	5319.908203
633.578125	5309.575195
631.615234	5329.010254
629.652344	5191.889648
627.689453	5132.441406
625.724609	5257.941406
623.759766	5264.439453
621.794922	5220.525391
619.828125	5234.781738
617.863281	5180.559082
615.896484	5083.739258
613.929688	5139.337891
611.960938	5101.958008
609.994141	5131.710938
608.025391	5034.993652
606.056641	5009.274414
604.087891	5131.888184
602.117188	5037.816895
600.146484	5057.233887
598.175781	5067.618652
596.205078	5105.057129
594.232422	5139.900391
592.261719	5049.801270
590.289063	5069.188965
588.314453	5076.981445
586.341797	4981.812500
584.367188	5046.233887
582.392578	5105.478027
580.417969	5083.672852
578.441406	5135.164063
576.466797	5042.664063
574.490234	5091.568848
572.511719	5069.786133
570.535156	5126.366699
568.556641	5096.879883
566.578125	5076.394043
564.599609	5014.843262
562.621094	5147.091797
560.640625	5040.649902
558.660156	5062.521484
556.679688	5142.085938
554.697266	5119.050781
552.716797	5121.660645
550.734375	5107.610352
548.751953	5088.441895
546.767578	5042.385742
544.785156	4991.229492
542.800781	5116.758301
540.816406	4958.101074
538.830078	5054.146973
536.845703	5033.736328
534.859375	5115.647949
532.873047	5049.201660
530.884766	4967.447266
528.898438	4995.638672
526.910156	4993.151367
524.921875	4988.110352
522.933594	4990.733398
520.943359	5068.682129
518.953125	5011.290527
516.962891	4957.754883
514.972656	4997.378906
512.980469	5006.371094
510.988281	4909.516602
508.996094	4868.803711
507.003906	4917.330566
505.009766	4945.445313
503.017578	4942.970215
501.021484	4890.823730
499.027344	4969.855957
497.033203	4836.252930
495.037109	4955.986328
493.041016	4948.419434
491.042969	4879.794434
489.046875	4822.648438
487.048828	4876.148926
485.050781	4932.165039
483.052734	4933.506348
481.052734	4823.037109
479.052734	4912.050293
477.052734	4880.375000
475.052734	4933.779785
473.050781	4875.458008
471.050781	4875.538086
469.048828	4900.992188
467.044922	4927.701172
465.042969	4865.630859
463.039063	4778.234863
461.035156	4892.407715
459.031250	4915.289063
457.025391	4901.419922
455.019531	4912.888184
453.013672	4900.291504
451.007813	4843.393555
449.000000	4852.333984
446.994141	4800.535645
444.984375	4860.080566
442.976563	4914.537109
440.968750	4824.828613
438.958984	4845.136230
436.949219	4807.301270
434.937500	4775.800781
432.927734	4768.315430
430.916016	4739.364746
428.904297	4707.902344
426.892578	4797.626465
424.878906	4721.998047
422.865234	4759.948730
420.851563	4718.419922
418.837891	4741.219727
416.822266	4699.714844
414.806641	4703.602051
412.791016	4742.767578
410.775391	4793.250488
408.757813	4776.959473
406.740234	4726.679688
404.722656	4756.987305
402.705078	4780.986816
400.685547	4708.094238
398.666016	4801.275391
396.646484	4746.018066
394.626953	4695.816406
392.605469	4762.534180
390.583984	4807.855957
388.562500	4712.447266
386.541016	4761.525391
384.517578	4805.556152
382.494141	4788.050781
380.470703	4805.695313
378.447266	4793.216309
376.421875	4843.465332
374.396484	4749.462402
372.371094	4793.427246
370.343750	4624.269531
368.318359	4718.371094
366.291016	4624.489258
364.261719	4637.124023
362.234375	4731.150879
360.205078	4638.585449
358.175781	4661.218750
356.146484	4554.950195
354.115234	4525.047852
352.085938	4638.995117
350.054688	4592.829590
348.021484	4596.691895
345.990234	4629.296875
343.957031	4508.196289
341.923828	4503.330078
339.890625	4475.985840
337.855469	4427.429199
335.820313	4372.654297
333.785156	4396.526855
331.750000	4414.148926
329.712891	4260.877930
327.675781	4395.743164
325.638672	4281.199707
323.601563	4303.815918
321.562500	4216.764648
319.523438	4233.155762
317.484375	4174.810059
315.445313	4308.247559
313.404297	4195.137695
311.363281	4166.712402
309.322266	4203.000000
307.279297	4131.048828
305.238281	4161.108398
303.195313	4074.282471
301.150391	3970.097656
299.107422	3924.369873
297.062500	3956.933594
295.017578	3960.913086
292.972656	3952.472656
290.925781	3817.409668
288.878906	3928.156006
286.832031	3841.557129
284.785156	3799.659180
282.736328	3876.840332
280.687500	3771.719482
278.638672	3852.586426
276.589844	3717.781006
274.539063	3699.503906
272.488281	3738.212646
270.437500	3665.452148
268.386719	3641.010254
266.333984	3621.531006
264.281250	3569.888428
262.228516	3599.919189
260.173828	3580.463135
258.119141	3494.247559
256.064453	3472.354492
254.009766	3527.094482
251.955078	3503.967773
249.898438	3445.030762
247.841797	3386.122803
245.783203	3386.504883
243.726563	3428.852051
241.667969	3377.395264
239.609375	3439.461182
237.548828	3237.557129
235.488281	3171.389404
233.427734	3154.563721
231.367188	3155.000244
229.306641	3114.776123
227.244141	3105.367188
225.181641	3100.888184
223.119141	3025.002930
221.054688	3075.934570
218.990234	2974.251465
216.925781	3011.636719
214.861328	2964.137207
212.794922	3006.423584
210.728516	2971.241699
208.662109	2979.092285
206.595703	2911.988281
204.527344	3040.229736
202.458984	2904.371826
200.390625	3004.311035
198.320313	2993.729248
196.251953	2855.531006
194.181641	2895.291016
192.109375	2824.644775
190.039063	2879.105957
187.966797	2859.986084
185.894531	2840.875244
183.820313	2878.135986
181.748047	2821.056152
179.673828	2810.541016
177.597656	2789.011963
175.523438	2848.278320
173.447266	2771.683350
171.371094	2822.359375
169.294922	2810.632080
167.216797	2840.484375
165.140625	2722.404053
163.060547	2785.260742
160.982422	2873.743164
158.902344	2820.484131
156.824219	2757.481934
154.742188	2706.720703
152.662109	2699.925781
150.580078	2765.129639
148.498047	2666.825684
146.416016	2741.761230
144.332031	2760.568604
142.250000	2708.662598
140.164063	2776.216309
138.080078	2734.079346
135.994141	2752.867676
133.908203	2662.046387
131.822266	2710.061768
129.736328	2723.971924
127.648438	2715.971436
125.560547	2703.108643
123.472656	2762.008057
121.382813	2730.900879
119.292969	2673.066162
117.203125	2661.441162
115.113281	2745.803223
113.021484	2763.315918
110.929688	2716.459717
108.837891	2809.239258
106.746094	2781.813721
104.652344	2787.163574
102.558594	2805.854004
100.462891	2754.193848
98.369141	2775.307129
96.273438	2829.136963
94.177734	2829.617920
92.080078	2780.426270
89.984375	2794.241943
87.886719	2862.539795
85.787109	2860.588867
83.689453	2784.812256
81.589844	2711.494385
79.490234	2718.050049
77.390625	2533.528809
75.289063	2171.378662
73.187500	1477.024902
71.085938	762.488525
68.982422	335.842804
66.878906	146.138245
64.775391	59.164581
62.671875	37.420929
60.566406	42.238453
58.462891	28.955982
56.355469	37.391747
54.250000	31.352661
52.142578	20.494480
50.035156	30.131094
47.927734	14.459158
45.818359	31.320011
43.708984	26.494638
41.599609	26.487728
39.490234	19.258776
37.378906	22.863827
35.267578	22.857857
33.156250	33.676464
31.042969	27.655581
28.929688	39.669373
26.816406	36.053635
24.703125	37.245674
22.587891	43.241718
20.472656	50.435463
18.357422	34.815361
16.240234	33.606026
14.125000	49.195919
12.007813	47.983429
9.888672	50.369381
7.769531	75.534241
5.652344	1035.626099
3.531250	10751.384766
1.412109	8102.151855
-0.708984	7516.743652
-2.830078	808.232544
-4.953125	125.691978
-7.074219	76.592087
-9.197266	47.857445
-11.320313	31.099144
-13.445313	44.244808
-15.570313	43.037651
-17.695313	37.050426
-19.820313	33.456070
-21.947266	31.058147
-24.074219	38.215317
-26.201172	25.072174
-28.330078	23.871948
-30.458984	23.865637
-32.587891	0.000000
