#Wave		#Intensity
1883.957031	13683.012695
1882.277344	13655.794922
1880.597656	13707.324219
1878.916016	13705.929688
1877.236328	13532.264648
1875.554688	13597.380859
1873.873047	13588.453125
1872.191406	13830.218750
1870.509766	13618.921875
1868.826172	13818.307617
1867.142578	13883.287109
1865.458984	13661.547852
1863.775391	13658.644531
1862.091797	13690.430664
1860.408203	13508.075195
1858.722656	13574.552734
1857.037109	13665.117188
1855.351563	13592.888672
1853.666016	13505.622070
1851.980469	13725.683594
1850.292969	13641.436523
1848.607422	13656.598633
1846.919922	13607.022461
1845.232422	13610.142578
1843.542969	13548.556641
1841.855469	13804.425781
1840.166016	13628.510742
1838.478516	13672.220703
1836.789063	13634.723633
1835.097656	13489.016602
1833.408203	13637.918945
1831.716797	13555.375000
1830.027344	13783.812500
1828.335938	13768.852539
1826.644531	13494.134766
1824.951172	13537.787109
1823.259766	13542.397461
1821.566406	13506.488281
1819.873047	13610.115234
1818.179688	13601.203125
1816.486328	13637.281250
1814.792969	13533.911133
1813.097656	13590.970703
1811.402344	13514.626953
1809.707031	13477.270508
1808.011719	13582.237305
1806.316406	13528.405273
1804.619141	13413.204102
1802.923828	13557.035156
1801.226563	13471.808594
1799.529297	13421.034180
1797.830078	13421.146484
1796.132813	13540.916016
1794.433594	13539.503906
1792.734375	13527.625977
1791.035156	13403.642578
1789.335938	13571.130859
1787.636719	13326.165039
1785.935547	13395.002930
1784.234375	13547.445313
1782.533203	13390.736328
1780.832031	13359.491211
1779.130859	13367.064453
1777.429688	13544.744141
1775.726563	13346.391602
1774.023438	13452.402344
1772.320313	13413.715820
1770.617188	13381.007813
1768.912109	13406.446289
1767.207031	13337.984375
1765.503906	13285.940430
1763.798828	13463.322266
1762.091797	13384.463867
1760.386719	13366.686523
1758.679688	13433.770508
1756.974609	13414.499023
1755.267578	13268.752930
1753.560547	13197.454102
1751.851563	13181.217773
1750.144531	13273.542969
1748.435547	13282.568359
1746.726563	13377.802734
1745.017578	13333.299805
1743.308594	13177.382813
1741.597656	13400.322266
1739.888672	13228.119141
1738.177734	13275.741211
1736.466797	13361.938477
1734.753906	13359.045898
1733.042969	13310.155273
1731.330078	13287.987305
1729.619141	13477.926758
1727.906250	13377.136719
1726.191406	13325.313477
1724.478516	13349.106445
1722.763672	13457.357422
1721.050781	13106.262695
1719.335938	13199.704102
1717.621094	13109.464844
1715.904297	13149.559570
1714.189453	13250.328125
1712.472656	13305.172852
1710.755859	13294.885742
1709.039063	13367.446289
1707.322266	13210.724609
1705.603516	13162.014648
1703.886719	13179.852539
1702.167969	13295.234375
1700.449219	13211.068359
1698.730469	13230.357422
1697.009766	13098.972656
1695.291016	13323.548828
1693.570313	13159.715820
1691.849609	13354.656250
1690.128906	13305.999023
1688.406250	13056.694336
1686.685547	13092.207031
1684.962891	13000.864258
1683.240234	13257.551758
1681.517578	13351.961914
1679.792969	13148.603516
1678.070313	13023.431641
1676.345703	13053.003906
1674.621094	13053.104492
1672.896484	13031.114258
1671.171875	13172.555664
1669.445313	13202.065430
1667.720703	13037.304688
1665.994141	13178.649414
1664.267578	13183.126953
1662.539063	12989.060547
1660.812500	13121.498047
1659.083984	13071.590820
1657.355469	13017.294922
1655.626953	12993.878906
1653.898438	13112.972656
1652.169922	13073.387695
1650.439453	12909.001953
1648.708984	13117.587891
1646.978516	13025.183594
1645.248047	13039.944336
1643.517578	13063.500000
1641.785156	12921.292969
1640.052734	13006.455078
1638.320313	13022.667969
1636.587891	12934.796875
1634.855469	13144.467773
1633.121094	12926.201172
1631.386719	13011.263672
1629.652344	12784.331055
1627.917969	12957.240234
1626.183594	12941.224609
1624.447266	12910.579102
1622.712891	12846.289063
1620.976563	12641.581055
1619.240234	12828.953125
1617.501953	12821.750977
1615.765625	12770.691406
1614.027344	12827.817383
1612.289063	12766.546875
1610.550781	12719.912109
1608.812500	12807.683594
1607.072266	12813.632813
1605.333984	12781.616211
1603.593750	12650.347656
1601.853516	12846.052734
1600.111328	12796.537109
1598.371094	12805.393555
1596.628906	12561.927734
1594.886719	12872.670898
1593.144531	12729.885742
1591.402344	12746.033203
1589.660156	12778.201172
1587.916016	12725.854492
1586.171875	12682.269531
1584.427734	12689.670898
1582.683594	12579.138672
1580.937500	12819.453125
1579.193359	12756.962891
1577.447266	12738.147461
1575.701172	12668.426758
1573.955078	12671.452148
1572.207031	12614.860352
1570.460938	12732.734375
1568.712891	12754.633789
1566.964844	12748.914063
1565.216797	12660.391602
1563.466797	12571.907227
1561.718750	12497.981445
1559.968750	12646.205078
1558.218750	12496.818359
1556.468750	12623.208008
1554.716797	12700.213867
1552.966797	12755.427734
1551.214844	12784.512695
1549.462891	12745.442383
1547.710938	12638.261719
1545.957031	12606.484375
1544.205078	12567.475586
1542.451172	12525.586914
1540.697266	12599.572266
1538.943359	12469.370117
1537.187500	12485.430664
1535.433594	12452.275391
1533.677734	12272.992188
1531.921875	12549.474609
1530.166016	12485.952148
1528.410156	12461.498047
1526.652344	12314.171875
1524.894531	12445.861328
1523.136719	12526.916016
1521.378906	12310.324219
1519.621094	12216.600586
1517.861328	12313.533203
1516.101563	12417.641602
1514.341797	12225.799805
1512.582031	12250.507813
1510.822266	12278.089844
1509.060547	12470.098633
1507.298828	12360.613281
1505.539063	12267.036133
1503.775391	12291.702148
1502.013672	12392.739258
1500.250000	12434.655273
1498.488281	12264.791016
1496.724609	12322.557617
1494.960938	12278.063477
1493.195313	12258.060547
1491.431641	12203.523438
1489.666016	12163.399414
1487.900391	12280.102539
1486.134766	12388.122070
1484.367188	12309.154297
1482.601563	12302.104492
1480.833984	12387.046875
1479.066406	12361.299805
1477.298828	12213.442383
1475.529297	12375.909180
1473.761719	12476.551758
1471.992188	12347.429688
1470.222656	12357.599609
1468.453125	12514.145508
1466.681641	12353.532227
1464.912109	12432.545898
1463.140625	12366.673828
1461.369141	12401.198242
1459.597656	12454.341797
1457.824219	12418.603516
1456.052734	12390.043945
1454.279297	12560.621094
1452.505859	12367.333008
1450.732422	12466.241211
1448.957031	12480.639648
1447.183594	12546.557617
1445.408203	12493.674805
1443.632813	12489.457031
1441.857422	12337.916016
1440.080078	12406.662109
1438.304688	12368.151367
1436.527344	12212.448242
1434.750000	12275.457031
1432.972656	12189.849609
1431.193359	12079.996094
1429.414063	11985.900391
1427.636719	11977.510742
1425.857422	12054.771484
1424.076172	12201.924805
1422.296875	11875.312500
1420.515625	12039.556641
1418.734375	11889.968750
1416.953125	11830.275391
1415.171875	11766.332031
1413.388672	11790.778320
1411.607422	11675.574219
1409.824219	11707.150391
1408.041016	11695.985352
1406.255859	11605.083008
1404.472656	11572.588867
1402.687500	11614.119141
1400.902344	11657.053711
1399.117188	11637.371094
1397.332031	11620.540039
1395.544922	11592.340820
1393.759766	11609.646484
1391.972656	11543.082031
1390.185547	11541.916016
1388.396484	11550.694336
1386.609375	11516.854492
1384.820313	11457.467773
1383.031250	11376.809570
1381.242188	11374.256836
1379.451172	11607.285156
1377.662109	11374.829102
1375.871094	11365.183594
1374.080078	11358.377930
1372.289063	11385.603516
1370.496094	11442.584961
1368.705078	11367.736328
1366.912109	11329.759766
1365.119141	11398.044922
1363.326172	11282.181641
1361.531250	11256.990234
1359.738281	11388.948242
1357.943359	11345.343750
1356.148438	11397.979492
1354.353516	11256.776367
1352.556641	11238.686523
1350.759766	11258.784180
1348.964844	11090.843750
1347.166016	11349.833008
1345.369141	11320.430664
1343.572266	11137.045898
1341.773438	11435.396484
1339.974609	11177.221680
1338.175781	11265.063477
1336.376953	11194.774414
1334.576172	11130.160156
1332.775391	11244.756836
1330.974609	11263.382813
1329.173828	11180.460938
1327.373047	11256.898438
1325.570313	11289.601563
1323.767578	11268.736328
1321.964844	11114.026367
1320.162109	11141.102539
1318.359375	11263.933594
1316.554688	11129.039063
1314.750000	11113.859375
1312.945313	11270.387695
1311.140625	11190.456055
1309.335938	11293.437500
1307.529297	11314.797852
1305.722656	11293.964844
1303.916016	11253.458984
1302.109375	11214.375000
1300.300781	11338.308594
1298.492188	11295.006836
1296.685547	11397.795898
1294.875000	11287.096680
1293.066406	11194.696289
1291.257813	11249.713867
1289.447266	11400.127930
1287.636719	11457.877930
1285.826172	11228.061523
1284.013672	11374.167969
1282.203125	11450.107422
1280.390625	11333.982422
1278.578125	11275.364258
1276.765625	11331.657227
1274.951172	11393.526367
1273.138672	11546.394531
1271.324219	11423.373047
1269.509766	11700.742188
1267.693359	11565.144531
1265.878906	11517.753906
1264.062500	11583.688477
1262.246094	11467.785156
1260.429688	11658.138672
1258.613281	11627.540039
1256.794922	11549.436523
1254.978516	11609.695313
1253.160156	11745.360352
1251.341797	11847.443359
1249.521484	11738.639648
1247.703125	12065.428711
1245.882813	11783.560547
1244.062500	11910.654297
1242.240234	12039.084961
1240.419922	12019.617188
1238.597656	11987.608398
1236.777344	12022.527344
1234.953125	12102.031250
1233.130859	12155.021484
1231.308594	12345.907227
1229.484375	12214.964844
1227.660156	12359.795898
1225.835938	12306.870117
1224.011719	12384.802734
1222.185547	12475.222656
1220.359375	12391.696289
1218.533203	12661.500000
1216.707031	12928.398438
1214.880859	12918.507813
1213.052734	13021.208008
1211.224609	13244.760742
1209.396484	13244.527344
1207.568359	13356.803711
1205.738281	13580.124023
1203.910156	14029.648438
1202.080078	14166.650391
1200.250000	14676.896484
1198.417969	15149.447266
1196.587891	15564.910156
1194.755859	16135.504883
1192.923828	16836.167969
1191.091797	17609.978516
1189.259766	18619.031250
1187.425781	19907.501953
1185.591797	21393.472656
1183.757813	23183.445313
1181.923828	25605.361328
1180.087891	27891.896484
1178.253906	31099.109375
1176.417969	34051.648438
1174.582031	37618.421875
1172.744141	40295.667969
1170.908203	43380.968750
1169.070313	45956.140625
1167.232422	48068.519531
1165.394531	49758.496094
1163.556641	50756.972656
1161.716797	52145.851563
1159.876953	52600.660156
1158.037109	53175.363281
1156.197266	53291.578125
1154.355469	53146.937500
1152.515625	52491.929688
1150.673828	52456.492188
1148.832031	51999.113281
1146.988281	51168.339844
1145.146484	50587.410156
1143.302734	49507.917969
1141.458984	48679.644531
1139.615234	47496.394531
1137.771484	46447.250000
1135.925781	45830.875000
1134.080078	44983.539063
1132.234375	44099.433594
1130.388672	43426.222656
1128.541016	42593.761719
1126.695313	42042.207031
1124.847656	41386.414063
1122.998047	40983.828125
1121.150391	40316.203125
1119.302734	40040.437500
1117.453125	39255.203125
1115.603516	39652.691406
1113.753906	39113.652344
1111.902344	38919.386719
1110.050781	38601.699219
1108.201172	38996.218750
1106.347656	38770.550781
1104.496094	39092.164063
1102.644531	38968.031250
1100.791016	38624.632813
1098.937500	37990.863281
1097.083984	37121.718750
1095.228516	36155.714844
1093.375000	35344.906250
1091.519531	34060.730469
1089.664063	33535.488281
1087.808594	32827.097656
1085.951172	31990.417969
1084.093750	31122.658203
1082.236328	30558.898438
1080.378906	29992.662109
1078.521484	29380.205078
1076.662109	28910.160156
1074.804688	28433.496094
1072.945313	27952.951172
1071.083984	27277.328125
1069.224609	26135.046875
1067.363281	25823.259766
1065.501953	24913.843750
1063.640625	23826.101563
1061.779297	22998.044922
1059.916016	22083.082031
1058.054688	21401.697266
1056.191406	20543.410156
1054.326172	19937.648438
1052.462891	19110.066406
1050.597656	18698.351563
1048.732422	18145.181641
1046.867188	17619.498047
1045.001953	17262.859375
1043.134766	16781.169922
1041.269531	16184.042969
1039.402344	15565.423828
1037.535156	15091.254883
1035.666016	14289.603516
1033.796875	13703.111328
1031.929688	13154.943359
1030.060547	12611.103516
1028.189453	12121.853516
1026.320313	11976.448242
1024.449219	12152.923828
1022.578125	12113.465820
1020.707031	12276.253906
1018.833984	12208.288086
1016.962891	12320.781250
1015.089844	12263.684570
1013.216797	12268.989258
1011.343750	12419.346680
1009.468750	12321.602539
1007.593750	12386.508789
1005.718750	12577.374023
1003.843750	12502.682617
1001.968750	12413.129883
1000.091797	12391.307617
998.214844	12396.563477
996.337891	12370.693359
994.460938	12435.474609
992.583984	12400.137695
990.705078	12268.806641
988.826172	12195.667969
986.947266	12230.691406
985.066406	12268.399414
983.187500	12308.791016
981.306641	12292.434570
979.425781	12247.726563
977.544922	12296.192383
975.662109	12197.513672
973.779297	12106.975586
971.896484	12069.093750
970.013672	11886.907227
968.130859	11637.380859
966.246094	11660.297852
964.361328	11611.767578
962.476563	11564.606445
960.591797	11398.910156
958.705078	11454.183594
956.820313	11285.893555
954.933594	11392.325195
953.044922	11370.837891
951.158203	11295.532227
949.269531	11284.837891
947.382813	11228.416992
945.492188	10911.142578
943.603516	10948.941406
941.714844	10807.955078
939.824219	10673.751953
937.933594	10741.133789
936.042969	10686.253906
934.150391	10612.598633
932.257813	10655.778320
930.367188	10486.864258
928.472656	10403.910156
926.580078	10374.658203
924.687500	10299.815430
922.792969	10269.258789
920.898438	10132.801758
919.001953	10058.064453
917.107422	10026.242188
915.210938	10085.536133
913.314453	10201.056641
911.417969	10017.901367
909.521484	9925.868164
907.623047	9860.647461
905.724609	9788.764648
903.826172	9949.703125
901.927734	9817.641602
900.029297	9792.620117
898.128906	9615.199219
896.228516	9711.867188
894.328125	9621.406250
892.425781	9673.937500
890.525391	9610.239258
888.623047	9553.247070
886.720703	9393.480469
884.816406	9512.750000
882.914063	9497.184570
881.009766	9381.567383
879.105469	9510.089844
877.201172	9493.200195
875.294922	9461.652344
873.390625	9356.810547
871.484375	9349.293945
869.578125	9501.650391
867.669922	9390.209961
865.763672	9515.851563
863.855469	9363.186523
861.947266	9468.808594
860.037109	9313.563477
858.128906	9341.983398
856.218750	9274.624023
854.308594	9229.900391
852.398438	9163.926758
850.486328	8962.410156
848.576172	9077.248047
846.664063	9031.281250
844.751953	8950.801758
842.837891	8951.360352
840.925781	8894.832031
839.011719	8813.111328
837.097656	8777.871094
835.183594	8789.080078
833.267578	8682.238281
831.353516	8803.523438
829.437500	8708.658203
827.519531	8847.108398
825.603516	8785.403320
823.685547	8921.119141
821.767578	8879.291016
819.849609	8942.090820
817.931641	9116.063477
816.011719	9123.187500
814.093750	9390.984375
812.173828	9265.746094
810.251953	9312.505859
808.332031	9472.959961
806.410156	9339.856445
804.488281	9395.814453
802.566406	9365.856445
800.642578	9335.912109
798.720703	9327.112305
796.796875	9409.425781
794.873047	9552.425781
792.947266	9544.898438
791.023438	9563.763672
789.097656	9566.789063
787.171875	9739.947266
785.246094	9593.929688
783.318359	9734.041992
781.390625	9755.471680
779.462891	9854.630859
777.535156	9798.297852
775.607422	9814.426758
773.677734	9955.633789
771.748047	9869.036133
769.818359	9893.030273
767.888672	9853.854492
765.957031	9766.024414
764.025391	9524.361328
762.093750	9489.242188
760.162109	9473.856445
758.228516	9382.251953
756.296875	9585.007813
754.363281	9422.483398
752.427734	9650.083984
750.494141	9681.941406
748.558594	9904.120117
746.623047	10029.078125
744.687500	10391.457031
742.751953	10248.643555
740.814453	10463.916992
738.876953	10538.797852
736.939453	10470.763672
735.001953	10460.422852
733.062500	10997.746094
731.123047	11300.343750
729.183594	11848.998047
727.244141	12286.102539
725.302734	12855.204102
723.363281	13359.911133
721.421875	13788.494141
719.478516	13562.862305
717.537109	13503.415039
715.593750	13382.546875
713.650391	13327.089844
711.707031	13698.974609
709.763672	13548.092773
707.818359	13974.604492
705.873047	14126.683594
703.927734	14176.857422
701.982422	14461.947266
700.035156	14715.582031
698.087891	14547.705078
696.140625	14535.119141
694.193359	14399.961914
692.244141	14464.331055
690.294922	14543.003906
688.345703	14890.069336
686.396484	14979.023438
684.447266	15221.622070
682.496094	15439.362305
680.544922	15460.422852
678.593750	15844.593750
676.640625	16250.699219
674.689453	16677.425781
672.736328	17357.558594
670.783203	17825.421875
668.828125	18081.167969
666.875000	18256.210938
664.919922	18280.445313
662.964844	18089.025391
661.007813	18074.322266
659.052734	18137.529297
657.095703	18185.126953
655.138672	18248.273438
653.179688	17968.851563
651.222656	17801.119141
649.263672	17560.839844
647.304688	17270.107422
645.345703	17286.720703
643.384766	17346.091797
641.423828	17348.425781
639.462891	17385.728516
637.501953	17441.142578
635.541016	17537.958984
633.578125	17359.023438
631.615234	17410.515625
629.652344	17547.371094
627.689453	17598.789063
625.724609	17791.136719
623.759766	18063.542969
621.794922	18123.843750
619.828125	18487.785156
617.863281	18448.474609
615.896484	18473.761719
613.929688	18202.037109
611.960938	18096.976563
609.994141	18083.601563
608.025391	17930.873047
606.056641	18015.585938
604.087891	17635.947266
602.117188	17533.718750
600.146484	17651.976563
598.175781	17482.769531
596.205078	17269.833984
594.232422	17346.841797
592.261719	17175.248047
590.289063	17360.394531
588.314453	17424.447266
586.341797	17259.388672
584.367188	17134.292969
582.392578	16885.767578
580.417969	17108.044922
578.441406	16705.355469
576.466797	16867.152344
574.490234	16794.980469
572.511719	16823.056641
570.535156	16689.271484
568.556641	16475.931641
566.578125	16188.227539
564.599609	16193.310547
562.621094	16090.596680
560.640625	16132.902344
558.660156	16231.621094
556.679688	16189.235352
554.697266	16301.991211
552.716797	16078.886719
550.734375	16057.065430
548.751953	16358.084961
546.767578	16341.326172
544.785156	16525.605469
542.800781	16686.751953
540.816406	16749.269531
538.830078	16912.839844
536.845703	16842.230469
534.859375	16384.142578
532.873047	16000.433594
530.884766	15724.285156
528.898438	15254.014648
526.910156	14844.021484
524.921875	14523.639648
522.933594	14617.177734
520.943359	14461.704102
518.953125	14372.677734
516.962891	14121.625000
514.972656	13910.243164
512.980469	13920.900391
510.988281	13612.750000
508.996094	13513.831055
507.003906	13393.289063
505.009766	13299.565430
503.017578	13036.447266
501.021484	12914.832031
499.027344	12840.386719
497.033203	12745.608398
495.037109	12625.419922
493.041016	12615.988281
491.042969	12584.933594
489.046875	12572.969727
487.048828	12482.178711
485.050781	12552.869141
483.052734	12532.021484
481.052734	12521.346680
479.052734	12365.867188
477.052734	11971.713867
475.052734	12019.581055
473.050781	11869.411133
471.050781	11735.808594
469.048828	11825.562500
467.044922	11864.534180
465.042969	11935.188477
463.039063	12071.730469
461.035156	12244.960938
459.031250	12962.981445
457.025391	13623.641602
455.019531	14477.757813
453.013672	15905.054688
451.007813	18244.376953
449.000000	22112.669922
446.994141	30215.283203
444.984375	48803.203125
442.976563	94434.742188
440.968750	171347.156250
438.958984	235979.500000
436.949219	234077.906250
434.937500	169662.218750
432.927734	111675.835938
430.916016	78387.046875
428.904297	60133.386719
426.892578	48712.128906
424.878906	40799.476563
422.865234	34523.191406
420.851563	29554.134766
418.837891	26095.625000
416.822266	23221.230469
414.806641	21244.349609
412.791016	19921.134766
410.775391	18749.734375
408.757813	18104.083984
406.740234	17465.044922
404.722656	17073.039063
402.705078	16688.777344
400.685547	16616.728516
398.666016	16976.162109
396.646484	17724.000000
394.626953	18808.412109
392.605469	20779.683594
390.583984	23451.177734
388.562500	27032.183594
386.541016	32829.531250
384.517578	41823.535156
382.494141	54397.226563
380.470703	68415.578125
378.447266	75508.210938
376.421875	71090.179688
374.396484	58649.023438
372.371094	45241.023438
370.343750	35598.980469
368.318359	29341.626953
366.291016	25647.058594
364.261719	22791.050781
362.234375	20472.433594
360.205078	19399.427734
358.175781	18146.710938
356.146484	17114.851563
354.115234	16391.257813
352.085938	16015.726563
350.054688	16053.021484
348.021484	16674.101563
345.990234	17603.576172
343.957031	18951.167969
341.923828	21347.408203
339.890625	24484.292969
337.855469	29288.953125
335.820313	34589.281250
333.785156	37827.851563
331.750000	37892.062500
329.712891	35851.992188
327.675781	32387.587891
325.638672	29108.167969
323.601563	26357.601563
321.562500	24651.376953
319.523438	23872.857422
317.484375	23119.630859
315.445313	22072.919922
313.404297	21107.642578
311.363281	19804.328125
309.322266	18708.203125
307.279297	17312.837891
305.238281	16025.117188
303.195313	14882.258789
301.150391	13736.239258
299.107422	13318.998047
297.062500	12900.721680
295.017578	12641.634766
292.972656	12725.397461
290.925781	12585.658203
288.878906	12630.914063
286.832031	12719.574219
284.785156	12831.758789
282.736328	12831.026367
280.687500	12559.999023
278.638672	12465.125000
276.589844	12345.511719
274.539063	12365.957031
272.488281	12359.140625
270.437500	12134.379883
268.386719	12328.180664
266.333984	12384.497070
264.281250	12372.726563
262.228516	12625.696289
260.173828	12566.869141
258.119141	12416.572266
256.064453	12490.092773
254.009766	12678.507813
251.955078	12477.633789
249.898438	12726.479492
247.841797	12775.142578
245.783203	12786.741211
243.726563	12866.218750
241.667969	12920.973633
239.609375	12985.569336
237.548828	13122.898438
235.488281	12976.555664
233.427734	12850.008789
231.367188	12905.922852
229.306641	12975.359375
227.244141	12686.305664
225.181641	12782.851563
223.119141	12902.739258
221.054688	12877.322266
218.990234	13162.015625
216.925781	13322.309570
214.861328	13477.599609
212.794922	13941.444336
210.728516	14357.109375
208.662109	14611.562500
206.595703	14916.260742
204.527344	15123.760742
202.458984	14536.596680
200.390625	13712.770508
198.320313	12846.400391
196.251953	12278.660156
194.181641	11821.620117
192.109375	11307.165039
190.039063	10943.791016
187.966797	10670.088867
185.894531	10489.668945
183.820313	10191.712891
181.748047	9813.061523
179.673828	9522.774414
177.597656	9210.595703
175.523438	8927.951172
173.447266	8806.977539
171.371094	8699.521484
169.294922	8496.718750
167.216797	8275.677734
165.140625	8097.532715
163.060547	8055.135254
160.982422	7926.008789
158.902344	7820.155273
156.824219	7781.521484
154.742188	7770.986328
152.662109	7635.956055
150.580078	7641.325195
148.498047	7473.456055
146.416016	7444.710938
144.332031	7430.611328
142.250000	7442.117676
140.164063	7364.650879
138.080078	7490.694824
135.994141	7443.705078
133.908203	7322.454590
131.822266	7481.280273
129.736328	7539.000000
127.648438	7416.597656
125.560547	7436.589844
123.472656	7563.597168
121.382813	7532.471191
119.292969	7604.684570
117.203125	7693.874023
115.113281	7812.174805
113.021484	7886.686035
110.929688	8410.460938
108.837891	8818.631836
106.746094	10146.581055
104.652344	18767.548828
102.558594	105497.929688
100.462891	162399.203125
98.369141	166467.500000
96.273438	34761.777344
94.177734	12302.475586
92.080078	9596.408203
89.984375	9001.649414
87.886719	8958.151367
85.787109	8978.834961
83.689453	8900.264648
81.589844	8536.186523
79.490234	8556.958008
77.390625	8512.415039
75.289063	7251.631348
73.187500	5129.700195
71.085938	2815.528320
68.982422	1216.524170
66.878906	487.932617
64.775391	230.621109
62.671875	146.062332
60.566406	109.819984
58.462891	80.835449
56.355469	62.721642
54.250000	59.087708
52.142578	80.772369
50.035156	71.109383
47.927734	51.811981
45.818359	62.640022
43.708984	65.032295
41.599609	57.791409
39.490234	60.183674
37.378906	66.184761
35.267578	58.949211
33.156250	58.933811
31.042969	63.728077
28.929688	66.115623
26.816406	60.089390
24.703125	72.088402
22.587891	64.862579
20.472656	80.456573
18.357422	55.224369
16.240234	73.213127
14.125000	83.993034
12.007813	103.164375
9.888672	101.938034
7.769531	117.497711
5.652344	895.385132
3.531250	5441.600586
1.412109	5613.882324
-0.708984	5085.419434
-2.830078	930.365479
-4.953125	173.574631
-7.074219	94.543358
-9.197266	84.946968
-11.320313	62.198288
-13.445313	70.552536
-15.570313	60.970009
-17.695313	58.563576
-19.820313	57.353260
-21.947266	43.003590
-24.074219	46.574917
-26.201172	29.847826
-28.330078	35.807922
-30.458984	10.739536
-32.587891	2.385932
